Schedule name	Environment name	Schedule run date	Database	Max_Number_Trials	Max_Schedule_Time	End Summary - Corrects (1)	End Summary - Blank Touches (1)	End Summary - Left ITI Touches (1)	End Summary - Centre ITI Touches (1)	End Summary - Right ITI Touches (1)	Correct touch latency	Blank Touch Latency	Correct Left touch latency	Correct Centre touch latency	Correct Right touch latency	Correct Reward Collection
5CSRTT_Must_Touch_Training_v2	Chamber 1 [Env. 20]	2023-11-07 10:45:47 AM	3xTg_5CSRTT	30	3600	4	15	0	0	0	527.179	130.859	140.610	0	656.035	31.348
Schedule name	Environment name	Schedule run date	Database	Max_Number_Trials	Max_Schedule_Time	End Summary - Corrects (1)	End Summary - Blank Touches (1)	End Summary - Left ITI Touches (1)	End Summary - Centre ITI Touches (1)	End Summary - Right ITI Touches (1)	Correct touch latency	Blank Touch Latency	Correct Left touch latency	Correct Centre touch latency	Correct Right touch latency	Correct Reward Collection
5CSRTT_Must_Touch_Training_v2	Chamber 2 [Env. 17]	2023-11-07 10:47:14 AM	3xTg_5CSRTT	30	3600	18	21	0	0	0	164.735	56.722	151.290	39.391	233.819	13.688
Schedule name	Environment name	Schedule run date	Database	Max_Number_Trials	Max_Schedule_Time	End Summary - Corrects (1)	End Summary - Blank Touches (1)	End Summary - Left ITI Touches (1)	End Summary - Centre ITI Touches (1)	End Summary - Right ITI Touches (1)	Correct touch latency	Blank Touch Latency	Correct Left touch latency	Correct Centre touch latency	Correct Right touch latency	Correct Reward Collection
5CSRTT_Must_Touch_Training_v2	Chamber 3 [Env. 22]	2023-11-07 10:45:03 AM	3xTg_5CSRTT	30	3600	17	108	0	0	0	189.487	89.114	95.120	354.137	241.686	18.858
Schedule name	Environment name	Schedule run date	Database	Max_Number_Trials	Max_Schedule_Time	End Summary - Corrects (1)	End Summary - Blank Touches (1)	End Summary - Left ITI Touches (1)	End Summary - Centre ITI Touches (1)	End Summary - Right ITI Touches (1)	Correct touch latency	Blank Touch Latency	Correct Left touch latency	Correct Centre touch latency	Correct Right touch latency	Correct Reward Collection
5CSRTT_Must_Touch_Training_v2	Chamber 4 [Env. 27]	2023-11-07 10:46:31 AM	3xTg_5CSRTT	30	3600	4	8	0	0	0	694.040	414.856	106.489	1,667.369	501.152	10.918
Schedule name	Environment name	Schedule run date	Database	Max_Number_Trials	Max_Schedule_Time	End Summary - Corrects (1)	End Summary - Blank Touches (1)	End Summary - Left ITI Touches (1)	End Summary - Centre ITI Touches (1)	End Summary - Right ITI Touches (1)	Correct touch latency	Blank Touch Latency	Correct Left touch latency	Correct Centre touch latency	Correct Right touch latency	Correct Reward Collection
5CSRTT_Must_Touch_Training_v2	Chamber 5 [Env. 24]	2023-11-07 12:13:17 PM	3xTg_5CSRTT	30	3600	30	55	0	0	0	42.656	33.466	22.028	110.852	21.784	4.973
Schedule name	Environment name	Schedule run date	Database	Max_Number_Trials	Max_Schedule_Time	End Summary - Corrects (1)	End Summary - Blank Touches (1)	End Summary - Left ITI Touches (1)	End Summary - Centre ITI Touches (1)	End Summary - Right ITI Touches (1)	Correct touch latency	Blank Touch Latency	Correct Left touch latency	Correct Centre touch latency	Correct Right touch latency	Correct Reward Collection
5CSRTT_Must_Touch_Training_v2	Chamber 6 [Env. 21]	2023-11-07 10:50:30 AM	3xTg_5CSRTT	30	3600	24	42	0	0	0	126.258	78.430	138.569	237.195	61.905	4.864
Schedule name	Environment name	Schedule run date	Database	Max_Number_Trials	Max_Schedule_Time	End Summary - Corrects (1)	End Summary - Blank Touches (1)	End Summary - Left ITI Touches (1)	End Summary - Centre ITI Touches (1)	End Summary - Right ITI Touches (1)	Correct touch latency	Blank Touch Latency	Correct Left touch latency	Correct Centre touch latency	Correct Right touch latency	Correct Reward Collection
5CSRTT_Must_Touch_Training_v2	Chamber 7 [Env. 25]	2023-11-07 12:14:49 PM	3xTg_5CSRTT	30	3600	13	9	0	0	0	198.914	173.051	252.142	396.792	26.960	6.639
Schedule name	Environment name	Schedule run date	Database	Max_Number_Trials	Max_Schedule_Time	End Summary - Corrects (1)	End Summary - Blank Touches (1)	End Summary - Left ITI Touches (1)	End Summary - Centre ITI Touches (1)	End Summary - Right ITI Touches (1)	Correct touch latency	Blank Touch Latency	Correct Left touch latency	Correct Centre touch latency	Correct Right touch latency	Correct Reward Collection
5CSRTT_Must_Touch_Training_v2	Chamber 8 [Env. 27]	2023-11-07 12:14:11 PM	3xTg_5CSRTT	30	3600	30	70	0	0	1	53.728	41.011	28.257	98.823	59.234	3.610
Schedule name	Environment name	Schedule run date	Database	Max_Number_Trials	Max_Schedule_Time	End Summary - Corrects (1)	End Summary - Blank Touches (1)	End Summary - Left ITI Touches (1)	End Summary - Centre ITI Touches (1)	End Summary - Right ITI Touches (1)	Correct touch latency	Blank Touch Latency	Correct Left touch latency	Correct Centre touch latency	Correct Right touch latency	Correct Reward Collection
5CSRTT_Must_Touch_Training_v2	Chamber 9 [Env. 24]	2023-11-07 10:54:53 AM	3xTg_5CSRTT	30	3600	17	16	0	0	0	176.408	178.013	169.024	99.685	224.615	28.555
Schedule name	Environment name	Schedule run date	Database	Max_Number_Trials	Max_Schedule_Time	End Summary - Corrects (1)	End Summary - Blank Touches (1)	End Summary - Left ITI Touches (1)	End Summary - Centre ITI Touches (1)	End Summary - Right ITI Touches (1)	Correct touch latency	Blank Touch Latency	Correct Left touch latency	Correct Centre touch latency	Correct Right touch latency	Correct Reward Collection
5CSRTT_Must_Touch_Training_v2	Chamber 10 [Env. 19]	2023-11-07 10:55:49 AM	3xTg_5CSRTT	30	3600	11	38	0	0	0	288.526	31.172	153.553	854.786	167.259	16.191
Schedule name	Environment name	Schedule run date	Database	Max_Number_Trials	Max_Schedule_Time	End Summary - Corrects (1)	End Summary - Blank Touches (1)	End Summary - Left ITI Touches (1)	End Summary - Centre ITI Touches (1)	End Summary - Right ITI Touches (1)	Correct touch latency	Blank Touch Latency	Correct Left touch latency	Correct Centre touch latency	Correct Right touch latency	Correct Reward Collection
5CSRTT_Must_Touch_Training_v2	Chamber 11 [Env. 18]	2023-11-07 10:56:37 AM	3xTg_5CSRTT	30	3600	11	48	0	0	0	298.254	126.505	417.740	415.243	199.514	15.259
